{
    "ApprovalTime": "2015-03-01T06:59:08Z",
    "AutoApprovalTime": "2015-03-01T06:58:38Z",
    "AssignmentId": "39GXDJN2OTE82U5UHOLJVT2FP5V8VJ",
    "WorkerId": "A3M67ESCWPOPZJ",
    "AcceptTime": "2015-03-01T06:51:29Z",
    "HITId": "3UZUVSO3P7V3YONJQW1RBNJ3FL6EM3",
    "Assignment": "",
    "answer": [
        {
            "rt": 3457,
            "trial_type": "text",
            "internal_chunk_id": "0-0",
            "time_elapsed": 3577,
            "key_press": 13,
            "trial_index": 0,
            "trial_index_global": 0
        },
        {
            "rt": 35844,
            "trial_type": "survey-likert",
            "responses": "{\"Q0\":7,\"Q1\":3}",
            "internal_chunk_id": "0-0",
            "time_elapsed": 39463,
            "trial_index": 0,
            "trial_index_global": 1
        },
        {
            "rt": 41842,
            "trial_type": "survey-likert",
            "responses": "{\"Q0\":7,\"Q1\":1,\"Q2\":1,\"Q3\":1,\"Q4\":6,\"Q5\":6,\"Q6\":6,\"Q7\":6,\"Q8\":1}",
            "internal_chunk_id": "0-0",
            "time_elapsed": 82379,
            "trial_index": 0,
            "trial_index_global": 2
        },
        {
            "rt": 31268,
            "trial_type": "survey-likert",
            "responses": "{\"Q0\":3,\"Q1\":5,\"Q2\":5,\"Q3\":5,\"Q4\":6,\"Q5\":6,\"Q6\":6,\"Q7\":7,\"Q8\":1}",
            "internal_chunk_id": "0-0",
            "time_elapsed": 114729,
            "trial_index": 0,
            "trial_index_global": 3
        },
        {
            "rt": 7382,
            "trial_type": "survey-likert",
            "responses": "{\"Q0\":7,\"Q1\":3}",
            "internal_chunk_id": "0-0",
            "time_elapsed": 123151,
            "trial_index": 0,
            "trial_index_global": 4
        },
        {
            "rt": 1740,
            "trial_type": "survey-text",
            "responses": "{}",
            "internal_chunk_id": "0-0",
            "time_elapsed": 125899,
            "trial_index": 0,
            "trial_index_global": 5
        },
        {
            "condition": "moral"
        },
        {
            "version": "original"
        }
    ],
    "AssignmentStatus": "Approved",
    "SubmitTime": "2015-03-01T06:53:38Z"
}