{
    "ApprovalTime": "2015-03-01T06:59:08Z",
    "AutoApprovalTime": "2015-03-01T06:57:55Z",
    "AssignmentId": "3X65QVEQI0N7ISJDKWZIA60WOXDCL7",
    "WorkerId": "A34DWBBWZRLO1X",
    "AcceptTime": "2015-03-01T06:49:31Z",
    "HITId": "3UZUVSO3P7V3YONJQW1RBNJ3FL6EM3",
    "Assignment": "",
    "answer": [
        {
            "rt": 16884,
            "trial_type": "text",
            "internal_chunk_id": "0-0",
            "time_elapsed": 16984,
            "key_press": 13,
            "trial_index": 0,
            "trial_index_global": 0
        },
        {
            "rt": 37002,
            "trial_type": "survey-likert",
            "responses": "{\"Q0\":7,\"Q1\":3}",
            "internal_chunk_id": "0-0",
            "time_elapsed": 54712,
            "trial_index": 0,
            "trial_index_global": 1
        },
        {
            "rt": 34990,
            "trial_type": "survey-likert",
            "responses": "{\"Q0\":7,\"Q1\":1,\"Q2\":1,\"Q3\":1,\"Q4\":7,\"Q5\":7,\"Q6\":7,\"Q7\":7,\"Q8\":1}",
            "internal_chunk_id": "0-0",
            "time_elapsed": 91221,
            "trial_index": 0,
            "trial_index_global": 2
        },
        {
            "rt": 77892,
            "trial_type": "survey-likert",
            "responses": "{\"Q0\":3,\"Q1\":5,\"Q2\":6,\"Q3\":5,\"Q4\":5,\"Q5\":7,\"Q6\":6,\"Q7\":5,\"Q8\":1}",
            "internal_chunk_id": "0-0",
            "time_elapsed": 170177,
            "trial_index": 0,
            "trial_index_global": 3
        },
        {
            "rt": 7505,
            "trial_type": "survey-likert",
            "responses": "{\"Q0\":7,\"Q1\":3}",
            "internal_chunk_id": "0-0",
            "time_elapsed": 178709,
            "trial_index": 0,
            "trial_index_global": 4
        },
        {
            "rt": 2526,
            "trial_type": "survey-text",
            "responses": "{}",
            "internal_chunk_id": "0-0",
            "time_elapsed": 182247,
            "trial_index": 0,
            "trial_index_global": 5
        },
        {
            "condition": "moral"
        },
        {
            "version": "original"
        }
    ],
    "AssignmentStatus": "Approved",
    "SubmitTime": "2015-03-01T06:52:55Z"
}