{
    "ApprovalTime": "2015-03-03T01:00:47Z",
    "AutoApprovalTime": "2015-03-03T01:01:34Z",
    "AssignmentId": "3IAEQB9FMEKXYE1QO61V3NZU7EXWD8",
    "WorkerId": "A1FKZ2HY4XKMG1",
    "AcceptTime": "2015-03-03T00:26:46Z",
    "HITId": "3GONHBMNHVY19JEFMJF4WXKL3ULMZT",
    "Assignment": "",
    "answer": [
        {
            "rt": 58453,
            "trial_type": "text",
            "internal_chunk_id": "0-0",
            "time_elapsed": 58590,
            "key_press": 13,
            "trial_index": 0,
            "trial_index_global": 0
        },
        {
            "rt": 24686,
            "trial_type": "survey-likert",
            "responses": "{\"Q0\":7,\"Q1\":2}",
            "internal_chunk_id": "0-0",
            "time_elapsed": 83303,
            "trial_index": 0,
            "trial_index_global": 1
        },
        {
            "rt": 29525,
            "trial_type": "survey-likert",
            "responses": "{\"Q0\":6,\"Q1\":2,\"Q2\":2,\"Q3\":1,\"Q4\":7,\"Q5\":7,\"Q6\":7,\"Q7\":7,\"Q8\":1}",
            "internal_chunk_id": "0-0",
            "time_elapsed": 113874,
            "trial_index": 0,
            "trial_index_global": 2
        },
        {
            "rt": 26629,
            "trial_type": "survey-likert",
            "responses": "{\"Q0\":1,\"Q1\":7,\"Q2\":7,\"Q3\":7,\"Q4\":3,\"Q5\":6,\"Q6\":3,\"Q7\":3,\"Q8\":3}",
            "internal_chunk_id": "0-0",
            "time_elapsed": 141552,
            "trial_index": 0,
            "trial_index_global": 3
        },
        {
            "rt": 3753,
            "trial_type": "survey-likert",
            "responses": "{\"Q0\":7,\"Q1\":1}",
            "internal_chunk_id": "0-0",
            "time_elapsed": 146338,
            "trial_index": 0,
            "trial_index_global": 4
        },
        {
            "rt": 1404,
            "trial_type": "survey-text",
            "responses": "{}",
            "internal_chunk_id": "0-0",
            "time_elapsed": 148748,
            "trial_index": 0,
            "trial_index_global": 5
        },
        {
            "condition": "moral"
        },
        {
            "version": "original"
        }
    ],
    "AssignmentStatus": "Approved",
    "SubmitTime": "2015-03-03T00:56:34Z"
}