{
    "ApprovalTime": "2015-03-03T00:39:06Z",
    "AutoApprovalTime": "2015-03-03T00:36:24Z",
    "AssignmentId": "3TPWUS5F891NTMVCOA6KJHHCMELWC8",
    "WorkerId": "APEH3OH95ZE21",
    "AcceptTime": "2015-03-03T00:26:41Z",
    "HITId": "3GONHBMNHVY19JEFMJF4WXKL3ULMZT",
    "Assignment": "",
    "answer": [
        {
            "rt": 14826,
            "trial_type": "text",
            "internal_chunk_id": "0-0",
            "time_elapsed": 14926,
            "key_press": 13,
            "trial_index": 0,
            "trial_index_global": 0
        },
        {
            "rt": 75534,
            "trial_type": "survey-likert",
            "responses": "{\"Q0\":6,\"Q1\":2}",
            "internal_chunk_id": "0-0",
            "time_elapsed": 90505,
            "trial_index": 0,
            "trial_index_global": 1
        },
        {
            "rt": 78445,
            "trial_type": "survey-likert",
            "responses": "{\"Q0\":6,\"Q1\":1,\"Q2\":1,\"Q3\":1,\"Q4\":2,\"Q5\":5,\"Q6\":2,\"Q7\":7,\"Q8\":1}",
            "internal_chunk_id": "0-0",
            "time_elapsed": 170057,
            "trial_index": 0,
            "trial_index_global": 2
        },
        {
            "rt": 75038,
            "trial_type": "survey-likert",
            "responses": "{\"Q0\":1,\"Q1\":7,\"Q2\":6,\"Q3\":6,\"Q4\":5,\"Q5\":7,\"Q6\":5,\"Q7\":1,\"Q8\":6}",
            "internal_chunk_id": "0-0",
            "time_elapsed": 246211,
            "trial_index": 0,
            "trial_index_global": 3
        },
        {
            "rt": 11351,
            "trial_type": "survey-likert",
            "responses": "{\"Q0\":6,\"Q1\":2}",
            "internal_chunk_id": "0-0",
            "time_elapsed": 258616,
            "trial_index": 0,
            "trial_index_global": 4
        },
        {
            "rt": 17837,
            "trial_type": "survey-text",
            "responses": "{}",
            "internal_chunk_id": "0-0",
            "time_elapsed": 277470,
            "trial_index": 0,
            "trial_index_global": 5
        },
        {
            "condition": "immoral"
        },
        {
            "version": "original"
        }
    ],
    "AssignmentStatus": "Approved",
    "SubmitTime": "2015-03-03T00:31:24Z"
}